 [antenna_pattern.dat]

  É” = 0.000 Åãplane
   É∆(deg)       EÉ”       EÉ∆       ER        EL 
   -90.000  -30.0000   -8.4230   -9.5701   -9.5701
   -89.000  -30.0000   -8.4271   -9.5536   -9.5946
   -88.000  -30.0000   -8.4391   -9.5449   -9.6273
   -87.000  -30.0000   -8.4591   -9.5437   -9.6682
   -86.000  -30.0000   -8.4868   -9.5496   -9.7172
   -85.000  -30.0000   -8.5219   -9.5621   -9.7744
   -84.000  -30.0000   -8.5640   -9.5807   -9.8394
   -83.000  -30.0000   -8.6125   -9.6046   -9.9120
   -82.000  -30.0000   -8.6670   -9.6331   -9.9918
   -81.000  -30.0000   -8.7267   -9.6653  -10.0784
   -80.000  -30.0000   -8.7907   -9.7000  -10.1710
   -79.000  -30.0000   -8.8579   -9.7362  -10.2689
   -78.000  -30.0000   -8.9274   -9.7725  -10.3711
   -77.000  -30.0000   -8.9976   -9.8075  -10.4767
   -76.000  -30.0000   -9.0672   -9.8395  -10.5843
   -75.000  -30.0000   -9.1345   -9.8670  -10.6925
   -74.000  -30.0000   -9.1978   -9.8882  -10.7995
   -73.000  -30.0000   -9.2550   -9.9012  -10.9036
   -72.000  -30.0000   -9.3043   -9.9042  -11.0027
   -71.000  -30.0000   -9.3434   -9.8953  -11.0945
   -70.000  -29.5711   -9.3703   -9.8730  -11.1768
   -69.000  -29.1199   -9.3829   -9.8355  -11.2469
   -68.000  -28.6874   -9.3794   -9.7816  -11.3026
   -67.000  -28.2716   -9.3580   -9.7102  -11.3413
   -66.000  -27.8712   -9.3172   -9.6206  -11.3609
   -65.000  -27.4849   -9.2561   -9.5124  -11.3594
   -64.000  -27.1116   -9.1741   -9.3855  -11.3353
   -63.000  -26.7504   -9.0708   -9.2405  -11.2874
   -62.000  -26.4003   -8.9467   -9.0779  -11.2153
   -61.000  -26.0607   -8.8023   -8.8988  -11.1189
   -60.000  -25.7310   -8.6389   -8.7046  -10.9988
   -59.000  -25.4105   -8.4578   -8.4968  -10.8560
   -58.000  -25.0989   -8.2607   -8.2769  -10.6922
   -57.000  -24.7955   -8.0494   -8.0466  -10.5091
   -56.000  -24.5002   -7.8261   -7.8078  -10.3091
   -55.000  -24.2125   -7.5926   -7.5620  -10.0943
   -54.000  -23.9321   -7.3509   -7.3109   -9.8671
   -53.000  -23.6589   -7.1029   -7.0561   -9.6299
   -52.000  -23.3925   -6.8504   -6.7990   -9.3849
   -51.000  -23.1329   -6.5949   -6.5408   -9.1341
   -50.000  -22.8797   -6.3380   -6.2827   -8.8796
   -49.000  -22.6329   -6.0810   -6.0257   -8.6230
   -48.000  -22.3923   -5.8249   -5.7708   -8.3658
   -47.000  -22.1578   -5.5709   -5.5188   -8.1095
   -46.000  -21.9294   -5.3198   -5.2702   -7.8551
   -45.000  -21.7068   -5.0723   -5.0257   -7.6036
   -44.000  -21.4901   -4.8290   -4.7858   -7.3558
   -43.000  -21.2791   -4.5905   -4.5509   -7.1126
   -42.000  -21.0738   -4.3572   -4.3212   -6.8743
   -41.000  -20.8741   -4.1295   -4.0972   -6.6415
   -40.000  -20.6800   -3.9076   -3.8790   -6.4146
   -39.000  -20.4914   -3.6917   -3.6667   -6.1938
   -38.000  -20.3082   -3.4820   -3.4606   -5.9794
   -37.000  -20.1305   -3.2787   -3.2606   -5.7714
   -36.000  -19.9581   -3.0818   -3.0670   -5.5701
   -35.000  -19.7910   -2.8914   -2.8796   -5.3756
   -34.000  -19.6292   -2.7074   -2.6985   -5.1878
   -33.000  -19.4726   -2.5300   -2.5238   -5.0068
   -32.000  -19.3212   -2.3591   -2.3554   -4.8325
   -31.000  -19.1749   -2.1947   -2.1933   -4.6650
   -30.000  -19.0337   -2.0367   -2.0374   -4.5042
   -29.000  -18.8976   -1.8851   -1.8877   -4.3500
   -28.000  -18.7665   -1.7399   -1.7442   -4.2025
   -27.000  -18.6404   -1.6009   -1.6068   -4.0615
   -26.000  -18.5192   -1.4682   -1.4755   -3.9269
   -25.000  -18.4029   -1.3416   -1.3501   -3.7988
   -24.000  -18.2914   -1.2211   -1.2307   -3.6769
   -23.000  -18.1848   -1.1067   -1.1171   -3.5613
   -22.000  -18.0829   -0.9982   -1.0094   -3.4519
   -21.000  -17.9857   -0.8956   -0.9073   -3.3485
   -20.000  -17.8933   -0.7988   -0.8110   -3.2512
   -19.000  -17.8055   -0.7078   -0.7203   -3.1598
   -18.000  -17.7223   -0.6225   -0.6351   -3.0743
   -17.000  -17.6437   -0.5428   -0.5555   -2.9947
   -16.000  -17.5696   -0.4688   -0.4814   -2.9208
   -15.000  -17.5001   -0.4003   -0.4126   -2.8527
   -14.000  -17.4350   -0.3373   -0.3493   -2.7902
   -13.000  -17.3744   -0.2797   -0.2913   -2.7333
   -12.000  -17.3182   -0.2277   -0.2386   -2.6820
   -11.000  -17.2664   -0.1810   -0.1912   -2.6363
   -10.000  -17.2189   -0.1396   -0.1491   -2.5961
    -9.000  -17.1758   -0.1037   -0.1122   -2.5614
    -8.000  -17.1370   -0.0731   -0.0805   -2.5322
    -7.000  -17.1025   -0.0478   -0.0540   -2.5085
    -6.000  -17.0723   -0.0278   -0.0328   -2.4903
    -5.000  -17.0463   -0.0132   -0.0168   -2.4776
    -4.000  -17.0246   -0.0039   -0.0059   -2.4703
    -3.000  -17.0071    0.0000   -0.0003   -2.4686
    -2.000  -16.9939   -0.0015    0.0000   -2.4724
    -1.000  -16.9849   -0.0083   -0.0049   -2.4818
     0.000  -16.9800   -0.0206   -0.0152   -2.4968
     1.000  -16.9794   -0.0384   -0.0307   -2.5175
     2.000  -16.9831   -0.0617   -0.0517   -2.5439
     3.000  -16.9909   -0.0906   -0.0781   -2.5761
     4.000  -17.0030   -0.1252   -0.1100   -2.6141
     5.000  -17.0192   -0.1654   -0.1474   -2.6581
     6.000  -17.0398   -0.2115   -0.1905   -2.7081
     7.000  -17.0646   -0.2635   -0.2393   -2.7642
     8.000  -17.0936   -0.3215   -0.2939   -2.8266
     9.000  -17.1269   -0.3856   -0.3544   -2.8954
    10.000  -17.1646   -0.4559   -0.4209   -2.9706
    11.000  -17.2065   -0.5325   -0.4935   -3.0525
    12.000  -17.2529   -0.6157   -0.5724   -3.1411
    13.000  -17.3036   -0.7054   -0.6577   -3.2368
    14.000  -17.3586   -0.8020   -0.7494   -3.3395
    15.000  -17.4182   -0.9056   -0.8479   -3.4497
    16.000  -17.4821   -1.0163   -0.9532   -3.5673
    17.000  -17.5506   -1.1344   -1.0656   -3.6928
    18.000  -17.6236   -1.2601   -1.1851   -3.8263
    19.000  -17.7012   -1.3935   -1.3122   -3.9681
    20.000  -17.7833   -1.5351   -1.4468   -4.1185
    21.000  -17.8701   -1.6850   -1.5894   -4.2778
    22.000  -17.9616   -1.8436   -1.7402   -4.4464
    23.000  -18.0578   -2.0111   -1.8994   -4.6245
    24.000  -18.1587   -2.1880   -2.0674   -4.8127
    25.000  -18.2644   -2.3745   -2.2444   -5.0112
    26.000  -18.3749   -2.5711   -2.4309   -5.2207
    27.000  -18.4904   -2.7782   -2.6272   -5.4415
    28.000  -18.6107   -2.9963   -2.8337   -5.6743
    29.000  -18.7360   -3.2259   -3.0509   -5.9196
    30.000  -18.8663   -3.4676   -3.2792   -6.1782
    31.000  -19.0017   -3.7219   -3.5192   -6.4506
    32.000  -19.1421   -3.9897   -3.7715   -6.7377
    33.000  -19.2877   -4.2715   -4.0367   -7.0403
    34.000  -19.4385   -4.5682   -4.3155   -7.3594
    35.000  -19.5945   -4.8808   -4.6086   -7.6961
    36.000  -19.7558   -5.2101   -4.9170   -8.0514
    37.000  -19.9224   -5.5575   -5.2415   -8.4268
    38.000  -20.0944   -5.9240   -5.5832   -8.8235
    39.000  -20.2718   -6.3111   -5.9433   -9.2432
    40.000  -20.4547   -6.7203   -6.3231   -9.6877
    41.000  -20.6432   -7.1536   -6.7241  -10.1589
    42.000  -20.8372   -7.6128   -7.1480  -10.6589
    43.000  -21.0370   -8.1003   -7.5967  -11.1902
    44.000  -21.2424   -8.6187   -8.0725  -11.7554
    45.000  -21.4538   -9.1711   -8.5778  -12.3573
    46.000  -21.6710   -9.7610   -9.1158  -12.9987
    47.000  -21.8942  -10.3924   -9.6898  -13.6824
    48.000  -22.1235  -11.0700  -10.3041  -14.4108
    49.000  -22.3591  -11.7992  -10.9634  -15.1852
    50.000  -22.6010  -12.5858  -11.6738  -16.0045
    51.000  -22.8494  -13.4366  -12.4424  -16.8631
    52.000  -23.1044  -14.3583  -13.2777  -17.7477
    53.000  -23.3663  -15.3568  -14.1903  -18.6312
    54.000  -23.6352  -16.4344  -15.1932  -19.4663
    55.000  -23.9114  -17.5841  -16.3017  -20.1805
    56.000  -24.1951  -18.7783  -17.5335  -20.6826
    57.000  -24.4867  -19.9470  -18.9058  -20.8903
    58.000  -24.7864  -20.9510  -20.4262  -20.7710
    59.000  -25.0947  -21.5841  -22.0656  -20.3618
    60.000  -25.4119  -21.6669  -23.6854  -19.7472
    61.000  -25.7387  -21.1952  -24.9189  -19.0178
    62.000  -26.0755  -20.3443  -25.2324  -18.2447
    63.000  -26.4229  -19.3220  -24.4847  -17.4736
    64.000  -26.7818  -18.2707  -23.1320  -16.7306
    65.000  -27.1530  -17.2627  -21.6441  -16.0287
    66.000  -27.5374  -16.3272  -20.2386  -15.3732
    67.000  -27.9360  -15.4718  -18.9772  -14.7651
    68.000  -28.3503  -14.6944  -17.8624  -14.2032
    69.000  -28.7816  -13.9896  -16.8790  -13.6853
    70.000  -29.2315  -13.3507  -16.0093  -13.2088
    71.000  -29.7022  -12.7713  -15.2370  -12.7710
    72.000  -30.0000  -12.2456  -14.5484  -12.3693
    73.000  -30.0000  -11.7682  -13.9321  -12.0014
    74.000  -30.0000  -11.3349  -13.3791  -11.6650
    75.000  -30.0000  -10.9416  -12.8817  -11.3584
    76.000  -30.0000  -10.5852  -12.4337  -11.0797
    77.000  -30.0000  -10.2627  -12.0302  -10.8276
    78.000  -30.0000   -9.9718  -11.6668  -10.6006
    79.000  -30.0000   -9.7103  -11.3400  -10.3977
    80.000  -30.0000   -9.4766  -11.0469  -10.2180
    81.000  -30.0000   -9.2690  -10.7850  -10.0605
    82.000  -30.0000   -9.0863  -10.5522   -9.9246
    83.000  -30.0000   -8.9275  -10.3466   -9.8098
    84.000  -30.0000   -8.7915  -10.1668   -9.7155
    85.000  -30.0000   -8.6777  -10.0115   -9.6415
    86.000  -30.0000   -8.5854   -9.8796   -9.5875
    87.000  -30.0000   -8.5141   -9.7702   -9.5533
    88.000  -30.0000   -8.4634   -9.6825   -9.5390
    89.000  -30.0000   -8.4331   -9.6160   -9.5446
    90.000  -30.0000   -8.4230   -9.5701   -9.5701




  É” = 0.000 Åãplane
   É∆(deg)       EÉ”       EÉ∆       ER        EL 
   -90.000  -30.0000   -8.3797   -9.5384   -9.5384
   -89.000  -30.0000   -8.3837   -9.5219   -9.5630
   -88.000  -30.0000   -8.3959   -9.5132   -9.5958
   -87.000  -30.0000   -8.4160   -9.5121   -9.6369
   -86.000  -30.0000   -8.4439   -9.5182   -9.6863
   -85.000  -30.0000   -8.4793   -9.5309   -9.7438
   -84.000  -30.0000   -8.5218   -9.5498   -9.8092
   -83.000  -30.0000   -8.5709   -9.5742   -9.8824
   -82.000  -30.0000   -8.6259   -9.6032   -9.9629
   -81.000  -30.0000   -8.6863   -9.6359  -10.0501
   -80.000  -30.0000   -8.7510   -9.6714  -10.1436
   -79.000  -30.0000   -8.8192   -9.7084  -10.2424
   -78.000  -30.0000   -8.8897   -9.7457  -10.3458
   -77.000  -30.0000   -8.9611   -9.7818  -10.4527
   -76.000  -30.0000   -9.0320   -9.8151  -10.5617
   -75.000  -30.0000   -9.1009   -9.8440  -10.6715
   -74.000  -30.0000   -9.1658   -9.8667  -10.7804
   -73.000  -30.0000   -9.2250   -9.8813  -10.8866
   -72.000  -30.0000   -9.2762   -9.8861  -10.9879
   -71.000  -29.9840   -9.3176   -9.8792  -11.0823
   -70.000  -29.5118   -9.3468   -9.8588  -11.1672
   -69.000  -29.0601   -9.3619   -9.8235  -11.2403
   -68.000  -28.6269   -9.3610   -9.7717  -11.2991
   -67.000  -28.2105   -9.3423   -9.7025  -11.3411
   -66.000  -27.8094   -9.3042   -9.6151  -11.3642
   -65.000  -27.4225   -9.2459   -9.5089  -11.3662
   -64.000  -27.0485   -9.1665   -9.3841  -11.3456
   -63.000  -26.6865   -9.0658   -9.2410  -11.3012
   -62.000  -26.3357   -8.9440   -9.0802  -11.2324
   -61.000  -25.9954   -8.8019   -8.9027  -11.1392
   -60.000  -25.6649   -8.6405   -8.7100  -11.0221
   -59.000  -25.3436   -8.4612   -8.5034  -10.8820
   -58.000  -25.0312   -8.2657   -8.2846  -10.7206
   -57.000  -24.7271   -8.0559   -8.0553  -10.5396
   -56.000  -24.4310   -7.8337   -7.8172  -10.3413
   -55.000  -24.1425   -7.6011   -7.5720  -10.1280
   -54.000  -23.8614   -7.3602   -7.3214   -9.9020
   -53.000  -23.5873   -7.1127   -7.0669   -9.6657
   -52.000  -23.3202   -6.8606   -6.8100   -9.4213
   -51.000  -23.0598   -6.6053   -6.5519   -9.1711
   -50.000  -22.8059   -6.3485   -6.2938   -8.9168
   -49.000  -22.5583   -6.0915   -6.0368   -8.6603
   -48.000  -22.3170   -5.8354   -5.7817   -8.4032
   -47.000  -22.0818   -5.5812   -5.5295   -8.1467
   -46.000  -21.8526   -5.3299   -5.2807   -7.8921
   -45.000  -21.6294   -5.0822   -5.0360   -7.6403
   -44.000  -21.4120   -4.8386   -4.7958   -7.3923
   -43.000  -21.2003   -4.5998   -4.5605   -7.1487
   -42.000  -20.9944   -4.3662   -4.3306   -6.9100
   -41.000  -20.7941   -4.1381   -4.1062   -6.6768
   -40.000  -20.5993   -3.9158   -3.8877   -6.4495
   -39.000  -20.4101   -3.6996   -3.6751   -6.2283
   -38.000  -20.2264   -3.4896   -3.4686   -6.0134
   -37.000  -20.0480   -3.2859   -3.2683   -5.8051
   -36.000  -19.8751   -3.0886   -3.0743   -5.6034
   -35.000  -19.7075   -2.8979   -2.8866   -5.4084
   -34.000  -19.5451   -2.7136   -2.7052   -5.2203
   -33.000  -19.3881   -2.5358   -2.5302   -5.0389
   -32.000  -19.2362   -2.3646   -2.3615   -4.8642
   -31.000  -19.0894   -2.1999   -2.1991   -4.6964
   -30.000  -18.9478   -2.0416   -2.0429   -4.5353
   -29.000  -18.8113   -1.8897   -1.8929   -4.3808
   -28.000  -18.6797   -1.7442   -1.7492   -4.2330
   -27.000  -18.5532   -1.6050   -1.6115   -4.0917
   -26.000  -18.4316   -1.4720   -1.4799   -3.9569
   -25.000  -18.3150   -1.3451   -1.3543   -3.8285
   -24.000  -18.2032   -1.2244   -1.2346   -3.7064
   -23.000  -18.0962   -1.1097   -1.1208   -3.5905
   -22.000  -17.9940   -1.0010   -1.0128   -3.4809
   -21.000  -17.8965   -0.8982   -0.9105   -3.3773
   -20.000  -17.8038   -0.8012   -0.8140   -3.2798
   -19.000  -17.7157   -0.7100   -0.7231   -3.1883
   -18.000  -17.6322   -0.6245   -0.6377   -3.1027
   -17.000  -17.5534   -0.5447   -0.5579   -3.0229
   -16.000  -17.4791   -0.4704   -0.4835   -2.9488
   -15.000  -17.4093   -0.4018   -0.4146   -2.8805
   -14.000  -17.3440   -0.3386   -0.3511   -2.8179
   -13.000  -17.2832   -0.2809   -0.2929   -2.7609
   -12.000  -17.2268   -0.2287   -0.2401   -2.7096
   -11.000  -17.1748   -0.1819   -0.1925   -2.6637
   -10.000  -17.1272   -0.1404   -0.1502   -2.6235
    -9.000  -17.0839   -0.1043   -0.1132   -2.5887
    -8.000  -17.0450   -0.0736   -0.0813   -2.5594
    -7.000  -17.0103   -0.0482   -0.0547   -2.5357
    -6.000  -16.9800   -0.0281   -0.0333   -2.5174
    -5.000  -16.9539   -0.0134   -0.0172   -2.5046
    -4.000  -16.9321   -0.0040   -0.0062   -2.4973
    -3.000  -16.9145    0.0000   -0.0005   -2.4956
    -2.000  -16.9011   -0.0014    0.0000   -2.4994
    -1.000  -16.8920   -0.0081   -0.0048   -2.5088
     0.000  -16.8871   -0.0203   -0.0149   -2.5238
     1.000  -16.8865   -0.0381   -0.0304   -2.5445
     2.000  -16.8900   -0.0613   -0.0512   -2.5709
     3.000  -16.8978   -0.0901   -0.0775   -2.6031
     4.000  -16.9099   -0.1246   -0.1093   -2.6412
     5.000  -16.9261   -0.1649   -0.1466   -2.6852
     6.000  -16.9466   -0.2109   -0.1896   -2.7353
     7.000  -16.9714   -0.2629   -0.2383   -2.7915
     8.000  -17.0004   -0.3208   -0.2928   -2.8539
     9.000  -17.0338   -0.3849   -0.3532   -2.9228
    10.000  -17.0714   -0.4551   -0.4196   -2.9981
    11.000  -17.1134   -0.5318   -0.4922   -3.0801
    12.000  -17.1598   -0.6149   -0.5710   -3.1689
    13.000  -17.2105   -0.7047   -0.6562   -3.2647
    14.000  -17.2657   -0.8013   -0.7479   -3.3676
    15.000  -17.3253   -0.9049   -0.8463   -3.4780
    16.000  -17.3893   -1.0157   -0.9515   -3.5959
    17.000  -17.4579   -1.1338   -1.0638   -3.7216
    18.000  -17.5310   -1.2596   -1.1834   -3.8553
    19.000  -17.6087   -1.3931   -1.3103   -3.9974
    20.000  -17.6909   -1.5348   -1.4450   -4.1482
    21.000  -17.7779   -1.6849   -1.5876   -4.3078
    22.000  -17.8695   -1.8436   -1.7383   -4.4768
    23.000  -17.9658   -2.0112   -1.8976   -4.6553
    24.000  -18.0669   -2.1883   -2.0655   -4.8440
    25.000  -18.1728   -2.3750   -2.2426   -5.0430
    26.000  -18.2836   -2.5718   -2.4291   -5.2531
    27.000  -18.3992   -2.7792   -2.6255   -5.4745
    28.000  -18.5198   -2.9975   -2.8320   -5.7080
    29.000  -18.6453   -3.2275   -3.0493   -5.9541
    30.000  -18.7759   -3.4695   -3.2777   -6.2134
    31.000  -18.9115   -3.7243   -3.5179   -6.4867
    32.000  -19.0523   -3.9924   -3.7703   -6.7748
    33.000  -19.1982   -4.2747   -4.0357   -7.0785
    34.000  -19.3493   -4.5720   -4.3147   -7.3988
    35.000  -19.5056   -4.8852   -4.6080   -7.7368
    36.000  -19.6673   -5.2152   -4.9167   -8.0937
    37.000  -19.8343   -5.5633   -5.2415   -8.4706
    38.000  -20.0066   -5.9307   -5.5835   -8.8692
    39.000  -20.1845   -6.3188   -5.9440   -9.2910
    40.000  -20.3678   -6.7291   -6.3243   -9.7377
    41.000  -20.5567   -7.1636   -6.7257  -10.2114
    42.000  -20.7512   -7.6241   -7.1502  -10.7144
    43.000  -20.9515   -8.1132   -7.5996  -11.2489
    44.000  -21.1574   -8.6334   -8.0761  -11.8178
    45.000  -21.3693   -9.1879   -8.5823  -12.4238
    46.000  -21.5870   -9.7801   -9.1212  -13.0699
    47.000  -21.8108  -10.4143   -9.6964  -13.7590
    48.000  -22.0406  -11.0950  -10.3120  -14.4934
    49.000  -22.2768  -11.8279  -10.9730  -15.2745
    50.000  -22.5192  -12.6189  -11.6852  -16.1011
    51.000  -22.7682  -13.4749  -12.4560  -16.9674
    52.000  -23.0239  -14.4028  -13.2940  -17.8591
    53.000  -23.2863  -15.4085  -14.2100  -18.7478
    54.000  -23.5559  -16.4944  -15.2170  -19.5838
    55.000  -23.8327  -17.6535  -16.3307  -20.2913
    56.000  -24.1171  -18.8566  -17.5691  -20.7764
    57.000  -24.4092  -20.0307  -18.9497  -20.9572
    58.000  -24.7096  -21.0310  -20.4806  -20.8062
    59.000  -25.0185  -21.6449  -22.1316  -20.3674
    60.000  -25.3364  -21.6948  -23.7594  -19.7297
    61.000  -25.6638  -21.1883  -24.9852  -18.9847
    62.000  -26.0013  -20.3113  -25.2663  -18.2019
    63.000  -26.3494  -19.2735  -24.4796  -17.4256
    64.000  -26.7089  -18.2145  -23.1023  -16.6801
    65.000  -27.0807  -17.2034  -21.6036  -15.9775
    66.000  -27.4657  -16.2672  -20.1946  -15.3223
    67.000  -27.8650  -15.4123  -18.9329  -14.7151
    68.000  -28.2798  -14.6361  -17.8189  -14.1544
    69.000  -28.7116  -13.9327  -16.8369  -13.6379
    70.000  -29.1621  -13.2952  -15.9686  -13.1627
    71.000  -29.6333  -12.7172  -15.1976  -12.7263
    72.000  -30.0000  -12.1928  -14.5102  -12.3259
    73.000  -30.0000  -11.7166  -13.8951  -11.9592
    74.000  -30.0000  -11.2844  -13.3430  -11.6241
    75.000  -30.0000  -10.8921  -12.8464  -11.3185
    76.000  -30.0000  -10.5366  -12.3992  -11.0408
    77.000  -30.0000  -10.2149  -11.9963  -10.7896
    78.000  -30.0000   -9.9247  -11.6334  -10.5635
    79.000  -30.0000   -9.6639  -11.3071  -10.3614
    80.000  -30.0000   -9.4307  -11.0144  -10.1823
    81.000  -30.0000   -9.2237  -10.7528  -10.0255
    82.000  -30.0000   -9.0414  -10.5202   -9.8902
    83.000  -30.0000   -8.8830  -10.3148   -9.7758
    84.000  -30.0000   -8.7473  -10.1352   -9.6820
    85.000  -30.0000   -8.6338   -9.9800   -9.6084
    86.000  -30.0000   -8.5416   -9.8481   -9.5548
    87.000  -30.0000   -8.4705   -9.7387   -9.5210
    88.000  -30.0000   -8.4199   -9.6510   -9.5069
    89.000  -30.0000   -8.3897   -9.5844   -9.5127
    90.000  -30.0000   -8.3797   -9.5384   -9.5384




  É” = 0.000 Åãplane
   É∆(deg)       EÉ”       EÉ∆       ER        EL 
   -90.000  -30.0000   -8.3365   -9.5071   -9.5071
   -89.000  -30.0000   -8.3406   -9.4905   -9.5318
   -88.000  -30.0000   -8.3528   -9.4819   -9.5647
   -87.000  -30.0000   -8.3731   -9.4808   -9.6061
   -86.000  -30.0000   -8.4013   -9.4871   -9.6557
   -85.000  -30.0000   -8.4370   -9.5001   -9.7136
   -84.000  -30.0000   -8.4798   -9.5193   -9.7795
   -83.000  -30.0000   -8.5293   -9.5441   -9.8532
   -82.000  -30.0000   -8.5850   -9.5736   -9.9342
   -81.000  -30.0000   -8.6460   -9.6069  -10.0222
   -80.000  -30.0000   -8.7115   -9.6431  -10.1165
   -79.000  -30.0000   -8.7806   -9.6809  -10.2163
   -78.000  -30.0000   -8.8521   -9.7192  -10.3208
   -77.000  -30.0000   -8.9247   -9.7563  -10.4290
   -76.000  -30.0000   -8.9970   -9.7909  -10.5394
   -75.000  -30.0000   -9.0673   -9.8211  -10.6508
   -74.000  -30.0000   -9.1339   -9.8453  -10.7616
   -73.000  -30.0000   -9.1949   -9.8616  -10.8697
   -72.000  -30.0000   -9.2482   -9.8682  -10.9734
   -71.000  -29.9248   -9.2917   -9.8632  -11.0702
   -70.000  -29.4521   -9.3233   -9.8448  -11.1579
   -69.000  -28.9997   -9.3409   -9.8116  -11.2339
   -68.000  -28.5659   -9.3426   -9.7620  -11.2958
   -67.000  -28.1488   -9.3265   -9.6949  -11.3411
   -66.000  -27.7471   -9.2912   -9.6096  -11.3676
   -65.000  -27.3594   -9.2355   -9.5056  -11.3731
   -64.000  -26.9847   -9.1588   -9.3828  -11.3561
   -63.000  -26.6220   -9.0606   -9.2415  -11.3152
   -62.000  -26.2705   -8.9413   -9.0825  -11.2498
   -61.000  -25.9294   -8.8015   -8.9067  -11.1598
   -60.000  -25.5981   -8.6421   -8.7154  -11.0456
   -59.000  -25.2761   -8.4647   -8.5101  -10.9083
   -58.000  -24.9629   -8.2708   -8.2923  -10.7493
   -57.000  -24.6580   -8.0623   -8.0639  -10.5704
   -56.000  -24.3611   -7.8413   -7.8266  -10.3740
   -55.000  -24.0718   -7.6096   -7.5820  -10.1621
   -54.000  -23.7899   -7.3694   -7.3319   -9.9373
   -53.000  -23.5151   -7.1225   -7.0777   -9.7020
   -52.000  -23.2472   -6.8708   -6.8210   -9.4583
   -51.000  -22.9860   -6.6158   -6.5630   -9.2085
   -50.000  -22.7313   -6.3591   -6.3049   -8.9546
   -49.000  -22.4830   -6.1021   -6.0478   -8.6982
   -48.000  -22.2409   -5.8459   -5.7927   -8.4410
   -47.000  -22.0050   -5.5916   -5.5402   -8.1845
   -46.000  -21.7751   -5.3401   -5.2912   -7.9297
   -45.000  -21.5512   -5.0921   -5.0462   -7.6776
   -44.000  -21.3331   -4.8483   -4.8058   -7.4293
   -43.000  -21.1208   -4.6092   -4.5702   -7.1853
   -42.000  -20.9141   -4.3752   -4.3400   -6.9463
   -41.000  -20.7132   -4.1468   -4.1153   -6.7127
   -40.000  -20.5178   -3.9241   -3.8964   -6.4849
   -39.000  -20.3280   -3.7075   -3.6835   -6.2633
   -38.000  -20.1437   -3.4972   -3.4767   -6.0480
   -37.000  -19.9648   -3.2931   -3.2760   -5.8393
   -36.000  -19.7913   -3.0955   -3.0817   -5.6372
   -35.000  -19.6231   -2.9044   -2.8937   -5.4418
   -34.000  -19.4603   -2.7198   -2.7120   -5.2532
   -33.000  -19.3027   -2.5417   -2.5366   -5.0715
   -32.000  -19.1503   -2.3701   -2.3676   -4.8965
   -31.000  -19.0031   -2.2051   -2.2049   -4.7283
   -30.000  -18.8611   -2.0465   -2.0484   -4.5669
   -29.000  -18.7241   -1.8943   -1.8982   -4.4121
   -28.000  -18.5921   -1.7485   -1.7541   -4.2640
   -27.000  -18.4652   -1.6090   -1.6162   -4.1224
   -26.000  -18.3433   -1.4758   -1.4843   -3.9873
   -25.000  -18.2262   -1.3487   -1.3584   -3.8586
   -24.000  -18.1141   -1.2277   -1.2385   -3.7363
   -23.000  -18.0067   -1.1128   -1.1245   -3.6203
   -22.000  -17.9042   -1.0039   -1.0162   -3.5104
   -21.000  -17.8065   -0.9008   -0.9138   -3.4067
   -20.000  -17.7134   -0.8036   -0.8170   -3.3090
   -19.000  -17.6251   -0.7122   -0.7258   -3.2173
   -18.000  -17.5413   -0.6265   -0.6403   -3.1315
   -17.000  -17.4622   -0.5465   -0.5603   -3.0515
   -16.000  -17.3877   -0.4721   -0.4857   -2.9773
   -15.000  -17.3177   -0.4033   -0.4166   -2.9089
   -14.000  -17.2522   -0.3400   -0.3529   -2.8462
   -13.000  -17.1912   -0.2822   -0.2946   -2.7891
   -12.000  -17.1346   -0.2298   -0.2416   -2.7376
   -11.000  -17.0824   -0.1828   -0.1938   -2.6917
   -10.000  -17.0346   -0.1412   -0.1514   -2.6513
    -9.000  -16.9912   -0.1050   -0.1142   -2.6165
    -8.000  -16.9521   -0.0741   -0.0822   -2.5871
    -7.000  -16.9173   -0.0486   -0.0554   -2.5633
    -6.000  -16.8868   -0.0284   -0.0339   -2.5450
    -5.000  -16.8606   -0.0136   -0.0176   -2.5321
    -4.000  -16.8387   -0.0041   -0.0065   -2.5248
    -3.000  -16.8210    0.0000   -0.0006   -2.5230
    -2.000  -16.8075   -0.0013    0.0000   -2.5268
    -1.000  -16.7984   -0.0080   -0.0047   -2.5362
     0.000  -16.7934   -0.0201   -0.0147   -2.5512
     1.000  -16.7927   -0.0377   -0.0300   -2.5719
     2.000  -16.7962   -0.0609   -0.0507   -2.5983
     3.000  -16.8039   -0.0897   -0.0769   -2.6306
     4.000  -16.8159   -0.1241   -0.1086   -2.6687
     5.000  -16.8321   -0.1643   -0.1458   -2.7127
     6.000  -16.8526   -0.2103   -0.1887   -2.7629
     7.000  -16.8774   -0.2622   -0.2373   -2.8191
     8.000  -16.9064   -0.3201   -0.2917   -2.8817
     9.000  -16.9398   -0.3841   -0.3520   -2.9506
    10.000  -16.9774   -0.4544   -0.4183   -3.0261
    11.000  -17.0195   -0.5310   -0.4908   -3.1082
    12.000  -17.0659   -0.6142   -0.5695   -3.1971
    13.000  -17.1166   -0.7040   -0.6546   -3.2931
    14.000  -17.1718   -0.8006   -0.7463   -3.3962
    15.000  -17.2315   -0.9042   -0.8446   -3.5067
    16.000  -17.2956   -1.0150   -0.9498   -3.6248
    17.000  -17.3643   -1.1332   -1.0621   -3.7508
    18.000  -17.4375   -1.2590   -1.1815   -3.8848
    19.000  -17.5153   -1.3927   -1.3085   -4.0272
    20.000  -17.5977   -1.5345   -1.4431   -4.1783
    21.000  -17.6847   -1.6846   -1.5857   -4.3383
    22.000  -17.7765   -1.8435   -1.7364   -4.5076
    23.000  -17.8730   -2.0113   -1.8957   -4.6866
    24.000  -17.9743   -2.1885   -2.0636   -4.8757
    25.000  -18.0804   -2.3754   -2.2407   -5.0753
    26.000  -18.1913   -2.5724   -2.4273   -5.2859
    27.000  -18.3072   -2.7801   -2.6237   -5.5080
    28.000  -18.4280   -2.9987   -2.8303   -5.7422
    29.000  -18.5538   -3.2290   -3.0477   -5.9890
    30.000  -18.6846   -3.4713   -3.2762   -6.2491
    31.000  -18.8206   -3.7265   -3.5165   -6.5233
    32.000  -18.9616   -3.9951   -3.7691   -6.8124
    33.000  -19.1078   -4.2779   -4.0346   -7.1172
    34.000  -19.2592   -4.5757   -4.3138   -7.4388
    35.000  -19.4159   -4.8895   -4.6073   -7.7781
    36.000  -19.5779   -5.2202   -4.9162   -8.1364
    37.000  -19.7453   -5.5691   -5.2413   -8.5150
    38.000  -19.9181   -5.9373   -5.5837   -8.9154
    39.000  -20.0963   -6.3263   -5.9446   -9.3393
    40.000  -20.2801   -6.7378   -6.3252   -9.7883
    41.000  -20.4694   -7.1734   -6.7272  -10.2646
    42.000  -20.6644   -7.6354   -7.1522  -10.7704
    43.000  -20.8651   -8.1260   -7.6022  -11.3083
    44.000  -21.0716   -8.6480   -8.0795  -11.8809
    45.000  -21.2839   -9.2045   -8.5865  -12.4911
    46.000  -21.5022   -9.7991   -9.1265  -13.1420
    47.000  -21.7265  -10.4360   -9.7028  -13.8364
    48.000  -21.9569  -11.1199  -10.3197  -14.5770
    49.000  -22.1936  -11.8565  -10.9822  -15.3649
    50.000  -22.4367  -12.6519  -11.6963  -16.1989
    51.000  -22.6862  -13.5131  -12.4693  -17.0729
    52.000  -22.9425  -14.4471  -13.3100  -17.9717
    53.000  -23.2056  -15.4601  -14.2293  -18.8656
    54.000  -23.4758  -16.5545  -15.2404  -19.7021
    55.000  -23.7532  -17.7228  -16.3592  -20.4021
    56.000  -24.0382  -18.9348  -17.6041  -20.8690
    57.000  -24.3311  -20.1141  -18.9930  -21.0218
    58.000  -24.6321  -21.1101  -20.5343  -20.8384
    59.000  -24.9416  -21.7039  -22.1967  -20.3701
    60.000  -25.2602  -21.7201  -23.8324  -19.7099
    61.000  -25.5883  -21.1789  -25.0499  -18.9498
    62.000  -25.9263  -20.2765  -25.2981  -18.1581
    63.000  -26.2751  -19.2240  -24.4731  -17.3769
    64.000  -26.6353  -18.1578  -23.0721  -16.6293
    65.000  -27.0077  -17.1438  -21.5632  -15.9262
    66.000  -27.3933  -16.2072  -20.1510  -15.2715
    67.000  -27.7932  -15.3529  -18.8891  -14.6652
    68.000  -28.2086  -14.5779  -17.7761  -14.1058
    69.000  -28.6410  -13.8759  -16.7953  -13.5907
    70.000  -29.0921  -13.2399  -15.9285  -13.1170
    71.000  -29.5638  -12.6633  -15.1588  -12.6819
    72.000  -30.0000  -12.1402  -14.4726  -12.2829
    73.000  -30.0000  -11.6653  -13.8586  -11.9174
    74.000  -30.0000  -11.2341  -13.3074  -11.5834
    75.000  -30.0000  -10.8429  -12.8116  -11.2790
    76.000  -30.0000  -10.4882  -12.3651  -11.0023
    77.000  -30.0000  -10.1674  -11.9628  -10.7520
    78.000  -30.0000   -9.8779  -11.6005  -10.5267
    79.000  -30.0000   -9.6177  -11.2746  -10.3254
    80.000  -30.0000   -9.3851  -10.9823  -10.1470
    81.000  -30.0000   -9.1785  -10.7210   -9.9908
    82.000  -30.0000   -8.9967  -10.4887   -9.8561
    83.000  -30.0000   -8.8386  -10.2835   -9.7423
    84.000  -30.0000   -8.7033  -10.1040   -9.6490
    85.000  -30.0000   -8.5900   -9.9488   -9.5758
    86.000  -30.0000   -8.4981   -9.8170   -9.5225
    87.000  -30.0000   -8.4271   -9.7076   -9.4890
    88.000  -30.0000   -8.3767   -9.6199   -9.4752
    89.000  -30.0000   -8.3465   -9.5532   -9.4811
    90.000  -30.0000   -8.3365   -9.5071   -9.5071




  É” = 0.000 Åãplane
   É∆(deg)       EÉ”       EÉ∆       ER        EL 
   -90.000  -30.0000   -8.2935   -9.4761   -9.4761
   -89.000  -30.0000   -8.2976   -9.4595   -9.5009
   -88.000  -30.0000   -8.3100   -9.4509   -9.5341
   -87.000  -30.0000   -8.3305   -9.4500   -9.5756
   -86.000  -30.0000   -8.3588   -9.4564   -9.6255
   -85.000  -30.0000   -8.3948   -9.4696   -9.6838
   -84.000  -30.0000   -8.4380   -9.4892   -9.7501
   -83.000  -30.0000   -8.4880   -9.5143   -9.8243
   -82.000  -30.0000   -8.5442   -9.5443   -9.9060
   -81.000  -30.0000   -8.6058   -9.5783   -9.9947
   -80.000  -30.0000   -8.6721   -9.6151  -10.0898
   -79.000  -30.0000   -8.7421   -9.6538  -10.1906
   -78.000  -30.0000   -8.8146   -9.6929  -10.2962
   -77.000  -30.0000   -8.8884   -9.7312  -10.4055
   -76.000  -30.0000   -8.9620   -9.7669  -10.5174
   -75.000  -30.0000   -9.0338   -9.7985  -10.6304
   -74.000  -30.0000   -9.1020   -9.8242  -10.7429
   -73.000  -30.0000   -9.1648   -9.8422  -10.8531
   -72.000  -30.0000   -9.2201   -9.8505  -10.9590
   -71.000  -29.8651   -9.2658   -9.8474  -11.0583
   -70.000  -29.3918   -9.2997   -9.8310  -11.1486
   -69.000  -28.9388   -9.3198   -9.7998  -11.2276
   -68.000  -28.5043   -9.3241   -9.7523  -11.2926
   -67.000  -28.0866   -9.3106   -9.6874  -11.3413
   -66.000  -27.6842   -9.2781   -9.6042  -11.3711
   -65.000  -27.2958   -9.2251   -9.5023  -11.3802
   -64.000  -26.9203   -9.1510   -9.3815  -11.3667
   -63.000  -26.5569   -9.0554   -9.2421  -11.3293
   -62.000  -26.2046   -8.9386   -9.0849  -11.2673
   -61.000  -25.8628   -8.8010   -8.9107  -11.1805
   -60.000  -25.5307   -8.6437   -8.7208  -11.0694
   -59.000  -25.2079   -8.4681   -8.5168  -10.9348
   -58.000  -24.8939   -8.2758   -8.3002  -10.7783
   -57.000  -24.5882   -8.0687   -8.0727  -10.6016
   -56.000  -24.2905   -7.8488   -7.8361  -10.4070
   -55.000  -24.0004   -7.6182   -7.5921  -10.1967
   -54.000  -23.7177   -7.3787   -7.3424   -9.9732
   -53.000  -23.4422   -7.1324   -7.0886   -9.7388
   -52.000  -23.1735   -6.8810   -6.8320   -9.4958
   -51.000  -22.9115   -6.6263   -6.5741   -9.2465
   -50.000  -22.6560   -6.3697   -6.3161   -8.9928
   -49.000  -22.4069   -6.1127   -6.0589   -8.7366
   -48.000  -22.1641   -5.8565   -5.8036   -8.4795
   -47.000  -21.9275   -5.6021   -5.5510   -8.2228
   -46.000  -21.6969   -5.3503   -5.3018   -7.9678
   -45.000  -21.4722   -5.1021   -5.0566   -7.7155
   -44.000  -21.2534   -4.8580   -4.8158   -7.4668
   -43.000  -21.0404   -4.6185   -4.5800   -7.2225
   -42.000  -20.8331   -4.3843   -4.3494   -6.9831
   -41.000  -20.6315   -4.1555   -4.1244   -6.7491
   -40.000  -20.4356   -3.9325   -3.9052   -6.5209
   -39.000  -20.2451   -3.7155   -3.6919   -6.2988
   -38.000  -20.0602   -3.5048   -3.4847   -6.0831
   -37.000  -19.8807   -3.3004   -3.2838   -5.8740
   -36.000  -19.7067   -3.1024   -3.0891   -5.6715
   -35.000  -19.5380   -2.9109   -2.9007   -5.4757
   -34.000  -19.3746   -2.7260   -2.7187   -5.2868
   -33.000  -19.2165   -2.5476   -2.5431   -5.1046
   -32.000  -19.0637   -2.3757   -2.3737   -4.9293
   -31.000  -18.9160   -2.2103   -2.2107   -4.7608
   -30.000  -18.7735   -2.0514   -2.0539   -4.5990
   -29.000  -18.6361   -1.8990   -1.9034   -4.4439
   -28.000  -18.5037   -1.7529   -1.7591   -4.2955
   -27.000  -18.3764   -1.6131   -1.6209   -4.1536
   -26.000  -18.2540   -1.4796   -1.4887   -4.0183
   -25.000  -18.1366   -1.3523   -1.3626   -3.8894
   -24.000  -18.0241   -1.2311   -1.2424   -3.7668
   -23.000  -17.9165   -1.1159   -1.1281   -3.6505
   -22.000  -17.8136   -1.0067   -1.0197   -3.5404
   -21.000  -17.7156   -0.9035   -0.9170   -3.4365
   -20.000  -17.6222   -0.8061   -0.8200   -3.3386
   -19.000  -17.5336   -0.7145   -0.7286   -3.2467
   -18.000  -17.4496   -0.6286   -0.6429   -3.1607
   -17.000  -17.3702   -0.5484   -0.5627   -3.0806
   -16.000  -17.2955   -0.4738   -0.4879   -3.0063
   -15.000  -17.2252   -0.4048   -0.4187   -2.9378
   -14.000  -17.1595   -0.3414   -0.3548   -2.8749
   -13.000  -17.0983   -0.2834   -0.2963   -2.8177
   -12.000  -17.0415   -0.2308   -0.2431   -2.7661
   -11.000  -16.9891   -0.1837   -0.1952   -2.7201
   -10.000  -16.9411   -0.1420   -0.1525   -2.6796
    -9.000  -16.8976   -0.1057   -0.1152   -2.6447
    -8.000  -16.8583   -0.0747   -0.0830   -2.6153
    -7.000  -16.8234   -0.0490   -0.0561   -2.5914
    -6.000  -16.7928   -0.0288   -0.0344   -2.5730
    -5.000  -16.7664   -0.0138   -0.0180   -2.5601
    -4.000  -16.7444   -0.0042   -0.0067   -2.5528
    -3.000  -16.7266    0.0000   -0.0007   -2.5510
    -2.000  -16.7131   -0.0012    0.0000   -2.5547
    -1.000  -16.7038   -0.0078   -0.0045   -2.5641
     0.000  -16.6988   -0.0198   -0.0144   -2.5791
     1.000  -16.6980   -0.0374   -0.0296   -2.5998
     2.000  -16.7014   -0.0605   -0.0502   -2.6262
     3.000  -16.7091   -0.0892   -0.0763   -2.6585
     4.000  -16.7211   -0.1236   -0.1078   -2.6966
     5.000  -16.7373   -0.1637   -0.1450   -2.7408
     6.000  -16.7577   -0.2096   -0.1878   -2.7909
     7.000  -16.7825   -0.2615   -0.2363   -2.8473
     8.000  -16.8115   -0.3194   -0.2906   -2.9099
     9.000  -16.8449   -0.3834   -0.3508   -2.9789
    10.000  -16.8826   -0.4537   -0.4170   -3.0545
    11.000  -16.9246   -0.5303   -0.4894   -3.1367
    12.000  -16.9710   -0.6134   -0.5680   -3.2258
    13.000  -17.0219   -0.7032   -0.6531   -3.3219
    14.000  -17.0771   -0.7999   -0.7446   -3.4252
    15.000  -17.1369   -0.9035   -0.8429   -3.5359
    16.000  -17.2011   -1.0144   -0.9481   -3.6543
    17.000  -17.2698   -1.1326   -1.0603   -3.7805
    18.000  -17.3431   -1.2585   -1.1797   -3.9148
    19.000  -17.4210   -1.3922   -1.3066   -4.0575
    20.000  -17.5036   -1.5341   -1.4412   -4.2088
    21.000  -17.5908   -1.6844   -1.5838   -4.3692
    22.000  -17.6827   -1.8433   -1.7345   -4.5389
    23.000  -17.7793   -2.0113   -1.8937   -4.7184
    24.000  -17.8808   -2.1887   -2.0617   -4.9080
    25.000  -17.9871   -2.3758   -2.2388   -5.1081
    26.000  -18.0982   -2.5730   -2.4254   -5.3192
    27.000  -18.2143   -2.7809   -2.6219   -5.5420
    28.000  -18.3354   -2.9999   -2.8286   -5.7768
    29.000  -18.4614   -3.2304   -3.0460   -6.0244
    30.000  -18.5925   -3.4731   -3.2746   -6.2853
    31.000  -18.7287   -3.7287   -3.5150   -6.5605
    32.000  -18.8700   -3.9977   -3.7677   -6.8505
    33.000  -19.0165   -4.2810   -4.0334   -7.1565
    34.000  -19.1683   -4.5794   -4.3128   -7.4792
    35.000  -19.3253   -4.8938   -4.6066   -7.8199
    36.000  -19.4877   -5.2252   -4.9157   -8.1797
    37.000  -19.6554   -5.5748   -5.2411   -8.5600
    38.000  -19.8286   -5.9439   -5.5838   -8.9623
    39.000  -20.0073   -6.3338   -5.9450   -9.3881
    40.000  -20.1915   -6.7463   -6.3261   -9.8395
    41.000  -20.3813   -7.1832   -6.7286  -10.3184
    42.000  -20.5767   -7.6465   -7.1541  -10.8272
    43.000  -20.7779   -8.1387   -7.6048  -11.3683
    44.000  -20.9849   -8.6625   -8.0827  -11.9447
    45.000  -21.1977   -9.2210   -8.5906  -12.5591
    46.000  -21.4165   -9.8180   -9.1315  -13.2149
    47.000  -21.6414  -10.4575   -9.7089  -13.9149
    48.000  -21.8724  -11.1447  -10.3271  -14.6616
    49.000  -22.1096  -11.8849  -10.9912  -15.4565
    50.000  -22.3533  -12.6848  -11.7071  -16.2980
    51.000  -22.6034  -13.5512  -12.4823  -17.1797
    52.000  -22.8603  -14.4914  -13.3256  -18.0857
    53.000  -23.1240  -15.5118  -14.2481  -18.9845
    54.000  -23.3948  -16.6146  -15.2632  -19.8211
    55.000  -23.6729  -17.7923  -16.3871  -20.5127
    56.000  -23.9586  -19.0130  -17.6385  -20.9602
    57.000  -24.2521  -20.1974  -19.0357  -21.0838
    58.000  -24.5537  -21.1883  -20.5872  -20.8677
    59.000  -24.8640  -21.7610  -22.2610  -20.3700
    60.000  -25.1832  -21.7429  -23.9042  -19.6878
    61.000  -25.5119  -21.1672  -25.1130  -18.9134
    62.000  -25.8506  -20.2400  -25.3280  -18.1132
    63.000  -26.2001  -19.1734  -24.4652  -17.3276
    64.000  -26.5609  -18.1005  -23.0414  -16.5782
    65.000  -26.9339  -17.0841  -21.5228  -15.8748
    66.000  -27.3201  -16.1471  -20.1078  -15.2206
    67.000  -27.7206  -15.2936  -18.8458  -14.6155
    68.000  -28.1366  -14.5199  -17.7338  -14.0574
    69.000  -28.5696  -13.8193  -16.7544  -13.5437
    70.000  -29.0213  -13.1848  -15.8889  -13.0715
    71.000  -29.4936  -12.6096  -15.1206  -12.6378
    72.000  -29.9887  -12.0878  -14.4356  -12.2401
    73.000  -30.0000  -11.6141  -13.8226  -11.8760
    74.000  -30.0000  -11.1841  -13.2723  -11.5432
    75.000  -30.0000  -10.7939  -12.7774  -11.2398
    76.000  -30.0000  -10.4401  -12.3316  -10.9641
    77.000  -30.0000  -10.1200  -11.9298  -10.7148
    78.000  -30.0000   -9.8313  -11.5680  -10.4903
    79.000  -30.0000   -9.5717  -11.2426  -10.2898
    80.000  -30.0000   -9.3397  -10.9506  -10.1121
    81.000  -30.0000   -9.1336  -10.6897   -9.9566
    82.000  -30.0000   -8.9522  -10.4576   -9.8224
    83.000  -30.0000   -8.7945  -10.2526   -9.7091
    84.000  -30.0000   -8.6595  -10.0732   -9.6163
    85.000  -30.0000   -8.5465   -9.9182   -9.5435
    86.000  -30.0000   -8.4548   -9.7864   -9.4906
    87.000  -30.0000   -8.3839   -9.6770   -9.4573
    88.000  -30.0000   -8.3336   -9.5892   -9.4438
    89.000  -30.0000   -8.3035   -9.5224   -9.4500
    90.000  -30.0000   -8.2935   -9.4761   -9.4761




  É” = 0.000 Åãplane
   É∆(deg)       EÉ”       EÉ∆       ER        EL 
   -90.000  -30.0000   -8.2507   -9.4456   -9.4456
   -89.000  -30.0000   -8.2549   -9.4290   -9.4705
   -88.000  -30.0000   -8.2674   -9.4204   -9.5038
   -87.000  -30.0000   -8.2880   -9.4195   -9.5455
   -86.000  -30.0000   -8.3165   -9.4261   -9.5958
   -85.000  -30.0000   -8.3528   -9.4396   -9.6543
   -84.000  -30.0000   -8.3964   -9.4594   -9.7211
   -83.000  -30.0000   -8.4469   -9.4849   -9.7958
   -82.000  -30.0000   -8.5036   -9.5154   -9.8781
   -81.000  -30.0000   -8.5658   -9.5499   -9.9675
   -80.000  -30.0000   -8.6329   -9.5875  -10.0634
   -79.000  -30.0000   -8.7037   -9.6270  -10.1651
   -78.000  -30.0000   -8.7772   -9.6670  -10.2718
   -77.000  -30.0000   -8.8521   -9.7063  -10.3824
   -76.000  -30.0000   -8.9270   -9.7433  -10.4956
   -75.000  -30.0000   -9.0003   -9.7762  -10.6102
   -74.000  -30.0000   -9.0702   -9.8033  -10.7245
   -73.000  -30.0000   -9.1348   -9.8229  -10.8367
   -72.000  -30.0000   -9.1921   -9.8330  -10.9448
   -71.000  -29.8049   -9.2399   -9.8317  -11.0465
   -70.000  -29.3309   -9.2761   -9.8173  -11.1396
   -69.000  -28.8774   -9.2987   -9.7881  -11.2214
   -68.000  -28.4422   -9.3055   -9.7428  -11.2896
   -67.000  -28.0238   -9.2947   -9.6800  -11.3415
   -66.000  -27.6207   -9.2648   -9.5989  -11.3748
   -65.000  -27.2316   -9.2146   -9.4990  -11.3874
   -64.000  -26.8554   -9.1431   -9.3803  -11.3775
   -63.000  -26.4912   -9.0501   -9.2428  -11.3436
   -62.000  -26.1382   -8.9357   -9.0873  -11.2851
   -61.000  -25.7955   -8.8004   -8.9147  -11.2016
   -60.000  -25.4627   -8.6452   -8.7263  -11.0935
   -59.000  -25.1391   -8.4714   -8.5235  -10.9617
   -58.000  -24.8243   -8.2808   -8.3080  -10.8077
   -57.000  -24.5178   -8.0751   -8.0815  -10.6332
   -56.000  -24.2193   -7.8564   -7.8456  -10.4405
   -55.000  -23.9284   -7.6267   -7.6022  -10.2317
   -54.000  -23.6449   -7.3880   -7.3530  -10.0095
   -53.000  -23.3685   -7.1422   -7.0995   -9.7760
   -52.000  -23.0990   -6.8913   -6.8431   -9.5338
   -51.000  -22.8362   -6.6368   -6.5853   -9.2850
   -50.000  -22.5800   -6.3804   -6.3273   -9.0317
   -49.000  -22.3302   -6.1234   -6.0701   -8.7756
   -48.000  -22.0866   -5.8671   -5.8147   -8.5185
   -47.000  -21.8492   -5.6125   -5.5619   -8.2617
   -46.000  -21.6179   -5.3606   -5.3124   -8.0065
   -45.000  -21.3925   -5.1121   -5.0669   -7.7540
   -44.000  -21.1730   -4.8677   -4.8259   -7.5050
   -43.000  -20.9593   -4.6280   -4.5898   -7.2603
   -42.000  -20.7514   -4.3934   -4.3589   -7.0205
   -41.000  -20.5491   -4.1642   -4.1335   -6.7860
   -40.000  -20.3525   -3.9409   -3.9140   -6.5575
   -39.000  -20.1614   -3.7236   -3.7004   -6.3350
   -38.000  -19.9759   -3.5125   -3.4929   -6.1188
   -37.000  -19.7959   -3.3077   -3.2916   -5.9093
   -36.000  -19.6212   -3.1094   -3.0966   -5.7064
   -35.000  -19.4520   -2.9175   -2.9079   -5.5102
   -34.000  -19.2881   -2.7322   -2.7255   -5.3209
   -33.000  -19.1295   -2.5535   -2.5495   -5.1384
   -32.000  -18.9762   -2.3813   -2.3799   -4.9627
   -31.000  -18.8280   -2.2156   -2.2165   -4.7938
   -30.000  -18.6851   -2.0564   -2.0595   -4.6317
   -29.000  -18.5472   -1.9036   -1.9087   -4.4763
   -28.000  -18.4144   -1.7573   -1.7641   -4.3275
   -27.000  -18.2867   -1.6172   -1.6256   -4.1854
   -26.000  -18.1640   -1.4834   -1.4932   -4.0498
   -25.000  -18.0462   -1.3559   -1.3668   -3.9206
   -24.000  -17.9333   -1.2344   -1.2464   -3.7978
   -23.000  -17.8254   -1.1190   -1.1318   -3.6813
   -22.000  -17.7222   -1.0096   -1.0231   -3.5710
   -21.000  -17.6238   -0.9062   -0.9202   -3.4668
   -20.000  -17.5302   -0.8086   -0.8230   -3.3688
   -19.000  -17.4413   -0.7168   -0.7315   -3.2767
   -18.000  -17.3570   -0.6307   -0.6455   -3.1906
   -17.000  -17.2774   -0.5503   -0.5651   -3.1103
   -16.000  -17.2024   -0.4756   -0.4902   -3.0358
   -15.000  -17.1319   -0.4064   -0.4207   -2.9671
   -14.000  -17.0660   -0.3428   -0.3566   -2.9041
   -13.000  -17.0045   -0.2846   -0.2979   -2.8468
   -12.000  -16.9475   -0.2319   -0.2446   -2.7951
   -11.000  -16.8950   -0.1847   -0.1965   -2.7490
   -10.000  -16.8469   -0.1428   -0.1537   -2.7084
    -9.000  -16.8031   -0.1063   -0.1162   -2.6734
    -8.000  -16.7637   -0.0752   -0.0839   -2.6440
    -7.000  -16.7286   -0.0495   -0.0568   -2.6200
    -6.000  -16.6979   -0.0291   -0.0350   -2.6016
    -5.000  -16.6714   -0.0140   -0.0184   -2.5886
    -4.000  -16.6493   -0.0043   -0.0070   -2.5813
    -3.000  -16.6314    0.0000   -0.0009   -2.5794
    -2.000  -16.6178   -0.0011    0.0000   -2.5832
    -1.000  -16.6084   -0.0076   -0.0044   -2.5925
     0.000  -16.6033   -0.0196   -0.0142   -2.6075
     1.000  -16.6024   -0.0370   -0.0292   -2.6282
     2.000  -16.6058   -0.0601   -0.0497   -2.6546
     3.000  -16.6135   -0.0887   -0.0757   -2.6869
     4.000  -16.6254   -0.1230   -0.1071   -2.7251
     5.000  -16.6415   -0.1631   -0.1441   -2.7693
     6.000  -16.6620   -0.2090   -0.1868   -2.8195
     7.000  -16.6867   -0.2608   -0.2352   -2.8759
     8.000  -16.7158   -0.3187   -0.2894   -2.9386
     9.000  -16.7491   -0.3826   -0.3495   -3.0077
    10.000  -16.7868   -0.4529   -0.4157   -3.0834
    11.000  -16.8289   -0.5295   -0.4880   -3.1658
    12.000  -16.8754   -0.6126   -0.5665   -3.2550
    13.000  -16.9262   -0.7024   -0.6515   -3.3513
    14.000  -16.9816   -0.7991   -0.7430   -3.4547
    15.000  -17.0414   -0.9028   -0.8412   -3.5656
    16.000  -17.1057   -1.0136   -0.9463   -3.6842
    17.000  -17.1745   -1.1319   -1.0584   -3.8106
    18.000  -17.2479   -1.2579   -1.1778   -3.9452
    19.000  -17.3259   -1.3917   -1.3047   -4.0882
    20.000  -17.4086   -1.5337   -1.4393   -4.2399
    21.000  -17.4959   -1.6840   -1.5818   -4.4006
    22.000  -17.5880   -1.8431   -1.7325   -4.5708
    23.000  -17.6848   -2.0113   -1.8917   -4.7506
    24.000  -17.7864   -2.1888   -2.0597   -4.9407
    25.000  -17.8929   -2.3761   -2.2369   -5.1413
    26.000  -18.0043   -2.5736   -2.4235   -5.3531
    27.000  -18.1206   -2.7817   -2.6200   -5.5764
    28.000  -18.2418   -3.0009   -2.8267   -5.8119
    29.000  -18.3681   -3.2318   -3.0442   -6.0602
    30.000  -18.4995   -3.4749   -3.2730   -6.3221
    31.000  -18.6360   -3.7308   -3.5135   -6.5981
    32.000  -18.7776   -4.0003   -3.7663   -6.8892
    33.000  -18.9244   -4.2840   -4.0321   -7.1962
    34.000  -19.0765   -4.5829   -4.3117   -7.5202
    35.000  -19.2339   -4.8979   -4.6057   -7.8622
    36.000  -19.3966   -5.2300   -4.9150   -8.2236
    37.000  -19.5647   -5.5804   -5.2407   -8.6055
    38.000  -19.7383   -5.9503   -5.5837   -9.0096
    39.000  -19.9174   -6.3412   -5.9453   -9.4376
    40.000  -20.1020   -6.7548   -6.3268   -9.8913
    41.000  -20.2922   -7.1929   -6.7298  -10.3729
    42.000  -20.4882   -7.6576   -7.1559  -10.8846
    43.000  -20.6898   -8.1513   -7.6071  -11.4291
    44.000  -20.8973   -8.6768   -8.0858  -12.0092
    45.000  -21.1107   -9.2374   -8.5945  -12.6280
    46.000  -21.3300   -9.8367   -9.1363  -13.2887
    47.000  -21.5554  -10.4790   -9.7148  -13.9942
    48.000  -21.7870  -11.1693  -10.3343  -14.7473
    49.000  -22.0248  -11.9133  -10.9999  -15.5491
    50.000  -22.2690  -12.7175  -11.7176  -16.3983
    51.000  -22.5198  -13.5892  -12.4949  -17.2878
    52.000  -22.7773  -14.5356  -13.3409  -18.2010
    53.000  -23.0417  -15.5634  -14.2665  -19.1047
    54.000  -23.3131  -16.6748  -15.2856  -19.9408
    55.000  -23.5918  -17.8617  -16.4145  -20.6231
    56.000  -23.8781  -19.0913  -17.6722  -21.0498
    57.000  -24.1723  -20.2804  -19.0776  -21.1432
    58.000  -24.4746  -21.2655  -20.6393  -20.8939
    59.000  -24.7855  -21.8162  -22.3244  -20.3671
    60.000  -25.1054  -21.7631  -23.9749  -19.6636
    61.000  -25.4348  -21.1530 