 [antenna_pattern.dat]

  É” = 90.000 Åãplane
   É∆(deg)       EÉ”       EÉ∆       ER        EL 
   -90.000   -3.3797  -15.5586   -4.6621   -8.3499
   -89.000   -3.4826  -15.8662   -4.8214   -8.3609
   -88.000   -3.5857  -16.1926   -4.9857   -8.3667
   -87.000   -3.6891  -16.5382   -5.1552   -8.3673
   -86.000   -3.7928  -16.9030   -5.3303   -8.3627
   -85.000   -3.8967  -17.2864   -5.5109   -8.3530
   -84.000   -4.0007  -17.6872   -5.6976   -8.3381
   -83.000   -4.1049  -18.1031   -5.8904   -8.3180
   -82.000   -4.2093  -18.5304   -6.0897   -8.2929
   -81.000   -4.3138  -18.9632   -6.2958   -8.2628
   -80.000   -4.4184  -19.3926   -6.5090   -8.2277
   -79.000   -4.5231  -19.8065   -6.7296   -8.1877
   -78.000   -4.6279  -20.1884   -6.9581   -8.1429
   -77.000   -4.7326  -20.5178   -7.1948   -8.0934
   -76.000   -4.8374  -20.7711   -7.4402   -8.0393
   -75.000   -4.9421  -20.9245   -7.6948   -7.9806
   -74.000   -5.0468  -20.9581   -7.9590   -7.9176
   -73.000   -5.1514  -20.8607   -8.2335   -7.8503
   -72.000   -5.2558  -20.6325   -8.5188   -7.7788
   -71.000   -5.3600  -20.2856   -8.8155   -7.7034
   -70.000   -5.4641  -19.8402   -9.1245   -7.6240
   -69.000   -5.5678  -19.3201   -9.4464   -7.5408
   -68.000   -5.6713  -18.7487   -9.7822   -7.4541
   -67.000   -5.7744  -18.1464  -10.1327   -7.3639
   -66.000   -5.8770  -17.5292  -10.4989   -7.2703
   -65.000   -5.9792  -16.9091  -10.8820   -7.1736
   -64.000   -6.0808  -16.2945  -11.2830   -7.0739
   -63.000   -6.1819  -15.6913  -11.7034   -6.9713
   -62.000   -6.2822  -15.1030  -12.1443   -6.8660
   -61.000   -6.3818  -14.5318  -12.6074   -6.7581
   -60.000   -6.4806  -13.9788  -13.0940   -6.6479
   -59.000   -6.5784  -13.4445  -13.6056   -6.5353
   -58.000   -6.6752  -12.9288  -14.1438   -6.4207
   -57.000   -6.7710  -12.4314  -14.7097   -6.3042
   -56.000   -6.8656  -11.9518  -15.3041   -6.1858
   -55.000   -6.9588  -11.4893  -15.9271   -6.0658
   -54.000   -7.0507  -11.0431  -16.5773   -5.9443
   -53.000   -7.1411  -10.6128  -17.2510   -5.8215
   -52.000   -7.2299  -10.1974  -17.9411   -5.6974
   -51.000   -7.3170   -9.7963  -18.6349   -5.5723
   -50.000   -7.4023   -9.4089  -19.3119   -5.4463
   -49.000   -7.4857   -9.0344  -19.9417   -5.3195
   -48.000   -7.5670   -8.6724  -20.4829   -5.1920
   -47.000   -7.6461   -8.3223  -20.8875   -5.0641
   -46.000   -7.7230   -7.9835  -21.1098   -4.9357
   -45.000   -7.7976   -7.6556  -21.1221   -4.8071
   -44.000   -7.8696   -7.3380  -20.9251   -4.6783
   -43.000   -7.9390   -7.0304  -20.5481   -4.5496
   -42.000   -8.0057   -6.7324  -20.0371   -4.4210
   -41.000   -8.0697   -6.4436  -19.4403   -4.2926
   -40.000   -8.1307   -6.1637  -18.7985   -4.1645
   -39.000   -8.1887   -5.8924  -18.1416   -4.0369
   -38.000   -8.2437   -5.6293  -17.4898   -3.9099
   -37.000   -8.2955   -5.3742  -16.8553   -3.7835
   -36.000   -8.3441   -5.1268  -16.2454   -3.6579
   -35.000   -8.3894   -4.8870  -15.6634   -3.5332
   -34.000   -8.4313   -4.6544  -15.1108   -3.4095
   -33.000   -8.4699   -4.4290  -14.5875   -3.2868
   -32.000   -8.5050   -4.2104  -14.0929   -3.1653
   -31.000   -8.5367   -3.9986  -13.6257   -3.0451
   -30.000   -8.5649   -3.7933  -13.1845   -2.9262
   -29.000   -8.5896   -3.5945  -12.7680   -2.8087
   -28.000   -8.6108   -3.4019  -12.3747   -2.6928
   -27.000   -8.6285   -3.2154  -12.0032   -2.5785
   -26.000   -8.6428   -3.0350  -11.6523   -2.4658
   -25.000   -8.6537   -2.8605  -11.3208   -2.3549
   -24.000   -8.6612   -2.6918  -11.0076   -2.2458
   -23.000   -8.6654   -2.5288  -10.7117   -2.1386
   -22.000   -8.6662   -2.3715  -10.4321   -2.0334
   -21.000   -8.6639   -2.2196  -10.1680   -1.9303
   -20.000   -8.6584   -2.0732   -9.9187   -1.8292
   -19.000   -8.6498   -1.9322   -9.6834   -1.7303
   -18.000   -8.6382   -1.7965   -9.4615   -1.6337
   -17.000   -8.6238   -1.6661   -9.2524   -1.5393
   -16.000   -8.6065   -1.5408   -9.0557   -1.4473
   -15.000   -8.5865   -1.4207   -8.8708   -1.3577
   -14.000   -8.5638   -1.3057   -8.6972   -1.2706
   -13.000   -8.5387   -1.1957   -8.5347   -1.1860
   -12.000   -8.5112   -1.0908   -8.3827   -1.1039
   -11.000   -8.4814   -0.9908   -8.2411   -1.0245
   -10.000   -8.4494   -0.8957   -8.1095   -0.9477
    -9.000   -8.4153   -0.8056   -7.9875   -0.8736
    -8.000   -8.3792   -0.7203   -7.8751   -0.8023
    -7.000   -8.3414   -0.6399   -7.7719   -0.7338
    -6.000   -8.3018   -0.5643   -7.6778   -0.6681
    -5.000   -8.2605   -0.4935   -7.5925   -0.6053
    -4.000   -8.2178   -0.4275   -7.5159   -0.5454
    -3.000   -8.1737   -0.3662   -7.4478   -0.4884
    -2.000   -8.1283   -0.3097   -7.3882   -0.4345
    -1.000   -8.0818   -0.2580   -7.3369   -0.3835
     0.000   -8.0342   -0.2110   -7.2937   -0.3356
     1.000   -7.9856   -0.1687   -7.2587   -0.2908
     2.000   -7.9362   -0.1311   -7.2316   -0.2491
     3.000   -7.8860   -0.0982   -7.2126   -0.2106
     4.000   -7.8352   -0.0701   -7.2014   -0.1751
     5.000   -7.7839   -0.0467   -7.1981   -0.1429
     6.000   -7.7322   -0.0279   -7.2026   -0.1139
     7.000   -7.6800   -0.0139   -7.2148   -0.0882
     8.000   -7.6277   -0.0046   -7.2349   -0.0657
     9.000   -7.5752    0.0000   -7.2627   -0.0464
    10.000   -7.5225   -0.0001   -7.2983   -0.0305
    11.000   -7.4700   -0.0050   -7.3417   -0.0179
    12.000   -7.4175   -0.0146   -7.3929   -0.0086
    13.000   -7.3651   -0.0289   -7.4519   -0.0026
    14.000   -7.3130   -0.0480   -7.5187    0.0000
    15.000   -7.2613   -0.0719   -7.5934   -0.0008
    16.000   -7.2099   -0.1005   -7.6761   -0.0049
    17.000   -7.1589   -0.1339   -7.7668   -0.0125
    18.000   -7.1085   -0.1721   -7.8654   -0.0234
    19.000   -7.0587   -0.2152   -7.9722   -0.0377
    20.000   -7.0095   -0.2631   -8.0872   -0.0555
    21.000   -6.9609   -0.3158   -8.2103   -0.0766
    22.000   -6.9131   -0.3734   -8.3418   -0.1012
    23.000   -6.8661   -0.4359   -8.4816   -0.1292
    24.000   -6.8199   -0.5034   -8.6298   -0.1606
    25.000   -6.7745   -0.5757   -8.7865   -0.1954
    26.000   -6.7301   -0.6530   -8.9516   -0.2337
    27.000   -6.6865   -0.7353   -9.1253   -0.2753
    28.000   -6.6439   -0.8225   -9.3076   -0.3204
    29.000   -6.6023   -0.9148   -9.4984   -0.3688
    30.000   -6.5617   -1.0122   -9.6976   -0.4207
    31.000   -6.5220   -1.1146   -9.9053   -0.4758
    32.000   -6.4834   -1.2221  -10.1212   -0.5344
    33.000   -6.4458   -1.3347  -10.3451   -0.5963
    34.000   -6.4092   -1.4524  -10.5768   -0.6615
    35.000   -6.3736   -1.5754  -10.8159   -0.7300
    36.000   -6.3391   -1.7035  -11.0619   -0.8018
    37.000   -6.3056   -1.8368  -11.3141   -0.8769
    38.000   -6.2730   -1.9754  -11.5717   -0.9552
    39.000   -6.2415   -2.1193  -11.8336   -1.0367
    40.000   -6.2110   -2.2684  -12.0985   -1.1213
    41.000   -6.1814   -2.4229  -12.3649   -1.2091
    42.000   -6.1527   -2.5827  -12.6309   -1.3000
    43.000   -6.1250   -2.7479  -12.8941   -1.3940
    44.000   -6.0981   -2.9184  -13.1520   -1.4909
    45.000   -6.0720   -3.0943  -13.4014   -1.5908
    46.000   -6.0468   -3.2757  -13.6391   -1.6937
    47.000   -6.0224   -3.4624  -13.8611   -1.7994
    48.000   -5.9986   -3.6546  -14.0635   -1.9078
    49.000   -5.9756   -3.8523  -14.2423   -2.0191
    50.000   -5.9532   -4.0554  -14.3935   -2.1329
    51.000   -5.9315   -4.2639  -14.5134   -2.2494
    52.000   -5.9102   -4.4778  -14.5989   -2.3684
    53.000   -5.8895   -4.6972  -14.6479   -2.4899
    54.000   -5.8692   -4.9219  -14.6592   -2.6136
    55.000   -5.8493   -5.1520  -14.6325   -2.7397
    56.000   -5.8298   -5.3874  -14.5689   -2.8678
    57.000   -5.8105   -5.6281  -14.4704   -2.9981
    58.000   -5.7915   -5.8741  -14.3401   -3.1303
    59.000   -5.7726   -6.1251  -14.1813   -3.2642
    60.000   -5.7539   -6.3813  -13.9979   -3.3999
    61.000   -5.7352   -6.6424  -13.7941   -3.5372
    62.000   -5.7165   -6.9084  -13.5738   -3.6758
    63.000   -5.6978   -7.1792  -13.3407   -3.8158
    64.000   -5.6789   -7.4545  -13.0983   -3.9568
    65.000   -5.6599   -7.7344  -12.8496   -4.0988
    66.000   -5.6407   -8.0185  -12.5974   -4.2416
    67.000   -5.6211   -8.3067  -12.3438   -4.3849
    68.000   -5.6012   -8.5988  -12.0909   -4.5287
    69.000   -5.5809   -8.8946  -11.8401   -4.6726
    70.000   -5.5602   -9.1938  -11.5929   -4.8165
    71.000   -5.5390   -9.4961  -11.3502   -4.9601
    72.000   -5.5172   -9.8014  -11.1128   -5.1033
    73.000   -5.4948  -10.1093  -10.8813   -5.2457
    74.000   -5.4717  -10.4195  -10.6563   -5.3871
    75.000   -5.4480  -10.7319  -10.4381   -5.5272
    76.000   -5.4235  -11.0459  -10.2269   -5.6658
    77.000   -5.3982  -11.3615  -10.0229   -5.8025
    78.000   -5.3721  -11.6784   -9.8262   -5.9371
    79.000   -5.3452  -11.9963   -9.6367   -6.0692
    80.000   -5.3173  -12.3150   -9.4545   -6.1985
    81.000   -5.2885  -12.6344   -9.2795   -6.3247
    82.000   -5.2588  -12.9545   -9.1117   -6.4474
    83.000   -5.2281  -13.2751   -8.9508   -6.5664
    84.000   -5.1963  -13.5965   -8.7969   -6.6811
    85.000   -5.1635  -13.9188   -8.6497   -6.7914
    86.000   -5.1296  -14.2423   -8.5091   -6.8967
    87.000   -5.0946  -14.5674   -8.3749   -6.9968
    88.000   -5.0585  -14.8946   -8.2469   -7.0914
    89.000   -5.0213  -15.2247   -8.1251   -7.1799
    90.000   -4.9829  -15.5586   -8.0092   -7.2622




